File: Рассчеты/Openrocket/date files/tga.csv
41.589
94.568
118.75
123.82
123.66
123.46
123.58
123.81
123.97
124.04
124.11
124.18
124.55
125.41
126.22
126.98
127.9
129.25
131.01
132.64
134.17
136
137.92
138.23
135.77
138.32
136.9
135.89
137.26
138.61
138.8
138.54
138.24
137.85
137.14
136.36
135.88
135.53
135.16
134.75
134.31
133.76
132.74
130.07
130.09
130.48
128.9
120.83
108.32
92.387
76.15
66.397
60.986
55.67
49.366
41.452
31.464
24.1
20.595
17.786
14.594
10.67
7.4233
5.4741
4.1607
2.7455
1.5074
0.17334
0
0
0
0
0
0
0
0
0
0
0
0
0
0
0
0
0
0
0
0
0
0
0
0
0
0
0
0
0
0
0
0
0
0
0
0
0
0
0
0
0
0
0
0
0
0
0
0
0
0
0
0
0
0
0
0
0
0
0
0
0
0
0
0
0
0
0
0
0
0
0
0
0
0
0
0
0
0
0
0
0
0
0
0
0
0
0
0
0
0
0
0
0
0
0
0
0
0
0
0
0
0
0
0
0
0
0
0
0
0
0
0
0
0
0
0
0
0
0
0
0
0
0
0
0
0
0
0
0
0
0
0
0
0
0
0
0
0
0
0
0
0
0
0
0
0
0
0
0
0
0
0
0
0
0
0
0
0
0
0
0
0
0
0
0
0
0
0
0
0
0
0
0
0
0
0
0
0
0
0
0
0
0
0
0
0
0
0
0
0
0
0
0
0
0
0
0
0
0
0
0
0
0
0
0
0
0
0
0
0
0
0
0
0
0
0
0
0
0
0
0
0
0
0
0
0
0
0
0
0
0
0
0
0
0
0
0
0
0
0
0
0
0
0
0
0
0
0
0
0
0
0
0
0
0
0
0
0
0
0
0
0
0
0
0
0
0
0
0
0
0
0
0
0
0
0
0
0
0
0
0
0
0
0
0
0
0
0
0
0
0
0
0
0
0
0
0
0
0
0
0
0
0
0
0
0
0
0
0
0
0
0
0
0
0
0
0
0
0
0
0
0
0
0
0
0
0
0
0
0
0
0
0
0
0
0
0
0
0
0
0
0
0
0
0
0